[
	{
		"rt": 2917.860000161454,
		"stimulus": "<p>Welcome!</p>\n                <p style=\"width: 600px\">In this task, you will be asked to rate 15 videos of a robot\n                    displaying emotions based on valence and arousal. You will\n                    only see each video once. If you're not sure about your rating,\n                    you can adjust the confidence slider at the bottom.</p>\n                <p>Press any key to begin.</p>",
		"key_press": 70,
		"trial_type": "html-keyboard-response",
		"trial_index": 0,
		"time_elapsed": 2921,
		"internal_node_id": "0.0-0.0"
	},
	{
		"rt": null,
		"stimulus": "<div style=\"font-size:52px;\">+</div>",
		"key_press": null,
		"test_part": "fixation",
		"trial_type": "html-keyboard-response",
		"trial_index": 1,
		"time_elapsed": 3174,
		"internal_node_id": "0.0-1.0-0.0"
	},
	{
		"rt": null,
		"key_press": null,
		"trial_type": "video-keyboard-response",
		"trial_index": 2,
		"time_elapsed": 10317,
		"internal_node_id": "0.0-1.0-1.0"
	},
	{
		"video_id": 233,
		"valence": "-0.11",
		"arousal": "0.55",
		"confidence": 1,
		"trial_type": "grid-response",
		"trial_index": 3,
		"time_elapsed": 19996,
		"internal_node_id": "0.0-1.0-2.0"
	},
	{
		"rt": null,
		"stimulus": "<div style=\"font-size:52px;\">+</div>",
		"key_press": null,
		"test_part": "fixation",
		"trial_type": "html-keyboard-response",
		"trial_index": 4,
		"time_elapsed": 20251,
		"internal_node_id": "0.0-1.0-0.1"
	},
	{
		"rt": null,
		"key_press": null,
		"trial_type": "video-keyboard-response",
		"trial_index": 5,
		"time_elapsed": 28928,
		"internal_node_id": "0.0-1.0-1.1"
	},
	{
		"video_id": 222,
		"valence": "0.36",
		"arousal": "0.36",
		"confidence": 1,
		"trial_type": "grid-response",
		"trial_index": 6,
		"time_elapsed": 32967,
		"internal_node_id": "0.0-1.0-2.1"
	},
	{
		"rt": null,
		"stimulus": "<div style=\"font-size:52px;\">+</div>",
		"key_press": null,
		"test_part": "fixation",
		"trial_type": "html-keyboard-response",
		"trial_index": 7,
		"time_elapsed": 33221,
		"internal_node_id": "0.0-1.0-0.2"
	},
	{
		"rt": null,
		"key_press": null,
		"trial_type": "video-keyboard-response",
		"trial_index": 8,
		"time_elapsed": 41792,
		"internal_node_id": "0.0-1.0-1.2"
	},
	{
		"video_id": 271,
		"valence": "0.57",
		"arousal": "0.35",
		"confidence": 1,
		"trial_type": "grid-response",
		"trial_index": 9,
		"time_elapsed": 48141,
		"internal_node_id": "0.0-1.0-2.2"
	},
	{
		"rt": null,
		"stimulus": "<div style=\"font-size:52px;\">+</div>",
		"key_press": null,
		"test_part": "fixation",
		"trial_type": "html-keyboard-response",
		"trial_index": 10,
		"time_elapsed": 48395,
		"internal_node_id": "0.0-1.0-0.3"
	},
	{
		"rt": null,
		"key_press": null,
		"trial_type": "video-keyboard-response",
		"trial_index": 11,
		"time_elapsed": 58070,
		"internal_node_id": "0.0-1.0-1.3"
	},
	{
		"video_id": 244,
		"valence": "-0.18",
		"arousal": "0.59",
		"confidence": 1,
		"trial_type": "grid-response",
		"trial_index": 12,
		"time_elapsed": 67409,
		"internal_node_id": "0.0-1.0-2.3"
	},
	{
		"rt": null,
		"stimulus": "<div style=\"font-size:52px;\">+</div>",
		"key_press": null,
		"test_part": "fixation",
		"trial_type": "html-keyboard-response",
		"trial_index": 13,
		"time_elapsed": 67665,
		"internal_node_id": "0.0-1.0-0.4"
	},
	{
		"rt": null,
		"key_press": null,
		"trial_type": "video-keyboard-response",
		"trial_index": 14,
		"time_elapsed": 78155,
		"internal_node_id": "0.0-1.0-1.4"
	},
	{
		"video_id": 265,
		"valence": "-0.60",
		"arousal": "-0.14",
		"confidence": 1,
		"trial_type": "grid-response",
		"trial_index": 15,
		"time_elapsed": 82671,
		"internal_node_id": "0.0-1.0-2.4"
	},
	{
		"rt": null,
		"stimulus": "<div style=\"font-size:52px;\">+</div>",
		"key_press": null,
		"test_part": "fixation",
		"trial_type": "html-keyboard-response",
		"trial_index": 16,
		"time_elapsed": 82927,
		"internal_node_id": "0.0-1.0-0.5"
	},
	{
		"rt": null,
		"key_press": null,
		"trial_type": "video-keyboard-response",
		"trial_index": 17,
		"time_elapsed": 89858,
		"internal_node_id": "0.0-1.0-1.5"
	},
	{
		"video_id": 23,
		"valence": "-0.69",
		"arousal": "-0.89",
		"confidence": 1,
		"trial_type": "grid-response",
		"trial_index": 18,
		"time_elapsed": 97204,
		"internal_node_id": "0.0-1.0-2.5"
	},
	{
		"rt": null,
		"stimulus": "<div style=\"font-size:52px;\">+</div>",
		"key_press": null,
		"test_part": "fixation",
		"trial_type": "html-keyboard-response",
		"trial_index": 19,
		"time_elapsed": 97456,
		"internal_node_id": "0.0-1.0-0.6"
	},
	{
		"rt": null,
		"key_press": null,
		"trial_type": "video-keyboard-response",
		"trial_index": 20,
		"time_elapsed": 105114,
		"internal_node_id": "0.0-1.0-1.6"
	},
	{
		"video_id": 236,
		"valence": "0.63",
		"arousal": "0.24",
		"confidence": 1,
		"trial_type": "grid-response",
		"trial_index": 21,
		"time_elapsed": 110164,
		"internal_node_id": "0.0-1.0-2.6"
	},
	{
		"rt": null,
		"stimulus": "<div style=\"font-size:52px;\">+</div>",
		"key_press": null,
		"test_part": "fixation",
		"trial_type": "html-keyboard-response",
		"trial_index": 22,
		"time_elapsed": 110417,
		"internal_node_id": "0.0-1.0-0.7"
	},
	{
		"rt": null,
		"key_press": null,
		"trial_type": "video-keyboard-response",
		"trial_index": 23,
		"time_elapsed": 118976,
		"internal_node_id": "0.0-1.0-1.7"
	},
	{
		"video_id": 133,
		"valence": "-0.61",
		"arousal": "0.53",
		"confidence": 1,
		"trial_type": "grid-response",
		"trial_index": 24,
		"time_elapsed": 121631,
		"internal_node_id": "0.0-1.0-2.7"
	},
	{
		"rt": null,
		"stimulus": "<div style=\"font-size:52px;\">+</div>",
		"key_press": null,
		"test_part": "fixation",
		"trial_type": "html-keyboard-response",
		"trial_index": 25,
		"time_elapsed": 121886,
		"internal_node_id": "0.0-1.0-0.8"
	},
	{
		"rt": null,
		"key_press": null,
		"trial_type": "video-keyboard-response",
		"trial_index": 26,
		"time_elapsed": 129356,
		"internal_node_id": "0.0-1.0-1.8"
	},
	{
		"video_id": 218,
		"valence": "-0.44",
		"arousal": "0.14",
		"confidence": 1,
		"trial_type": "grid-response",
		"trial_index": 27,
		"time_elapsed": 134243,
		"internal_node_id": "0.0-1.0-2.8"
	},
	{
		"rt": null,
		"stimulus": "<div style=\"font-size:52px;\">+</div>",
		"key_press": null,
		"test_part": "fixation",
		"trial_type": "html-keyboard-response",
		"trial_index": 28,
		"time_elapsed": 134495,
		"internal_node_id": "0.0-1.0-0.9"
	},
	{
		"rt": null,
		"key_press": null,
		"trial_type": "video-keyboard-response",
		"trial_index": 29,
		"time_elapsed": 143590,
		"internal_node_id": "0.0-1.0-1.9"
	},
	{
		"video_id": 88,
		"valence": "0.42",
		"arousal": "0.09",
		"confidence": 1,
		"trial_type": "grid-response",
		"trial_index": 30,
		"time_elapsed": 156047,
		"internal_node_id": "0.0-1.0-2.9"
	},
	{
		"rt": null,
		"stimulus": "<div style=\"font-size:52px;\">+</div>",
		"key_press": null,
		"test_part": "fixation",
		"trial_type": "html-keyboard-response",
		"trial_index": 31,
		"time_elapsed": 156300,
		"internal_node_id": "0.0-1.0-0.10"
	},
	{
		"rt": null,
		"key_press": null,
		"trial_type": "video-keyboard-response",
		"trial_index": 32,
		"time_elapsed": 174866,
		"internal_node_id": "0.0-1.0-1.10"
	},
	{
		"video_id": 258,
		"valence": "-0.99",
		"arousal": "-0.82",
		"confidence": 1,
		"trial_type": "grid-response",
		"trial_index": 33,
		"time_elapsed": 179415,
		"internal_node_id": "0.0-1.0-2.10"
	},
	{
		"rt": null,
		"stimulus": "<div style=\"font-size:52px;\">+</div>",
		"key_press": null,
		"test_part": "fixation",
		"trial_type": "html-keyboard-response",
		"trial_index": 34,
		"time_elapsed": 179667,
		"internal_node_id": "0.0-1.0-0.11"
	},
	{
		"rt": null,
		"key_press": null,
		"trial_type": "video-keyboard-response",
		"trial_index": 35,
		"time_elapsed": 189216,
		"internal_node_id": "0.0-1.0-1.11"
	},
	{
		"video_id": 57,
		"valence": "-0.54",
		"arousal": "0.41",
		"confidence": 1,
		"trial_type": "grid-response",
		"trial_index": 36,
		"time_elapsed": 198052,
		"internal_node_id": "0.0-1.0-2.11"
	},
	{
		"rt": null,
		"stimulus": "<div style=\"font-size:52px;\">+</div>",
		"key_press": null,
		"test_part": "fixation",
		"trial_type": "html-keyboard-response",
		"trial_index": 37,
		"time_elapsed": 198306,
		"internal_node_id": "0.0-1.0-0.12"
	},
	{
		"rt": null,
		"key_press": null,
		"trial_type": "video-keyboard-response",
		"trial_index": 38,
		"time_elapsed": 205307,
		"internal_node_id": "0.0-1.0-1.12"
	},
	{
		"video_id": 207,
		"valence": "-0.28",
		"arousal": "0.60",
		"confidence": 1,
		"trial_type": "grid-response",
		"trial_index": 39,
		"time_elapsed": 222795,
		"internal_node_id": "0.0-1.0-2.12"
	},
	{
		"rt": null,
		"stimulus": "<div style=\"font-size:52px;\">+</div>",
		"key_press": null,
		"test_part": "fixation",
		"trial_type": "html-keyboard-response",
		"trial_index": 40,
		"time_elapsed": 223051,
		"internal_node_id": "0.0-1.0-0.13"
	},
	{
		"rt": null,
		"key_press": null,
		"trial_type": "video-keyboard-response",
		"trial_index": 41,
		"time_elapsed": 232963,
		"internal_node_id": "0.0-1.0-1.13"
	},
	{
		"video_id": 98,
		"valence": "-0.67",
		"arousal": "-0.88",
		"confidence": 1,
		"trial_type": "grid-response",
		"trial_index": 42,
		"time_elapsed": 242253,
		"internal_node_id": "0.0-1.0-2.13"
	},
	{
		"rt": null,
		"stimulus": "<div style=\"font-size:52px;\">+</div>",
		"key_press": null,
		"test_part": "fixation",
		"trial_type": "html-keyboard-response",
		"trial_index": 43,
		"time_elapsed": 242505,
		"internal_node_id": "0.0-1.0-0.14"
	},
	{
		"rt": null,
		"key_press": null,
		"trial_type": "video-keyboard-response",
		"trial_index": 44,
		"time_elapsed": 250030,
		"internal_node_id": "0.0-1.0-1.14"
	},
	{
		"video_id": 248,
		"valence": "0.41",
		"arousal": "0.18",
		"confidence": 1,
		"trial_type": "grid-response",
		"trial_index": 45,
		"time_elapsed": 258272,
		"internal_node_id": "0.0-1.0-2.14"
	},
	{
		"rt": null,
		"stimulus": "<div style=\"font-size:52px;\">+</div>",
		"key_press": null,
		"test_part": "fixation",
		"trial_type": "html-keyboard-response",
		"trial_index": 46,
		"time_elapsed": 258527,
		"internal_node_id": "0.0-1.0-0.15"
	},
	{
		"rt": null,
		"key_press": null,
		"trial_type": "video-keyboard-response",
		"trial_index": 47,
		"time_elapsed": 268327,
		"internal_node_id": "0.0-1.0-1.15"
	},
	{
		"video_id": 135,
		"valence": "-0.28",
		"arousal": "0.41",
		"confidence": 1,
		"trial_type": "grid-response",
		"trial_index": 48,
		"time_elapsed": 272720,
		"internal_node_id": "0.0-1.0-2.15"
	},
	{
		"rt": null,
		"stimulus": "<div style=\"font-size:52px;\">+</div>",
		"key_press": null,
		"test_part": "fixation",
		"trial_type": "html-keyboard-response",
		"trial_index": 49,
		"time_elapsed": 272976,
		"internal_node_id": "0.0-1.0-0.16"
	},
	{
		"rt": null,
		"key_press": null,
		"trial_type": "video-keyboard-response",
		"trial_index": 50,
		"time_elapsed": 280587,
		"internal_node_id": "0.0-1.0-1.16"
	},
	{
		"video_id": 306,
		"valence": "0.69",
		"arousal": "0.54",
		"confidence": 1,
		"trial_type": "grid-response",
		"trial_index": 51,
		"time_elapsed": 289015,
		"internal_node_id": "0.0-1.0-2.16"
	},
	{
		"rt": null,
		"stimulus": "<div style=\"font-size:52px;\">+</div>",
		"key_press": null,
		"test_part": "fixation",
		"trial_type": "html-keyboard-response",
		"trial_index": 52,
		"time_elapsed": 289271,
		"internal_node_id": "0.0-1.0-0.17"
	},
	{
		"rt": null,
		"key_press": null,
		"trial_type": "video-keyboard-response",
		"trial_index": 53,
		"time_elapsed": 303018,
		"internal_node_id": "0.0-1.0-1.17"
	},
	{
		"video_id": 82,
		"valence": "-0.74",
		"arousal": "0.93",
		"confidence": 1,
		"trial_type": "grid-response",
		"trial_index": 54,
		"time_elapsed": 311112,
		"internal_node_id": "0.0-1.0-2.17"
	},
	{
		"rt": null,
		"stimulus": "<div style=\"font-size:52px;\">+</div>",
		"key_press": null,
		"test_part": "fixation",
		"trial_type": "html-keyboard-response",
		"trial_index": 55,
		"time_elapsed": 311366,
		"internal_node_id": "0.0-1.0-0.18"
	},
	{
		"rt": null,
		"key_press": null,
		"trial_type": "video-keyboard-response",
		"trial_index": 56,
		"time_elapsed": 320131,
		"internal_node_id": "0.0-1.0-1.18"
	},
	{
		"video_id": 56,
		"valence": "-0.15",
		"arousal": "-0.21",
		"confidence": 1,
		"trial_type": "grid-response",
		"trial_index": 57,
		"time_elapsed": 340155,
		"internal_node_id": "0.0-1.0-2.18"
	},
	{
		"rt": null,
		"stimulus": "<div style=\"font-size:52px;\">+</div>",
		"key_press": null,
		"test_part": "fixation",
		"trial_type": "html-keyboard-response",
		"trial_index": 58,
		"time_elapsed": 340411,
		"internal_node_id": "0.0-1.0-0.19"
	},
	{
		"rt": null,
		"key_press": null,
		"trial_type": "video-keyboard-response",
		"trial_index": 59,
		"time_elapsed": 349272,
		"internal_node_id": "0.0-1.0-1.19"
	},
	{
		"video_id": 138,
		"valence": "-0.28",
		"arousal": "0.46",
		"confidence": 1,
		"trial_type": "grid-response",
		"trial_index": 60,
		"time_elapsed": 352450,
		"internal_node_id": "0.0-1.0-2.19"
	},
	{
		"rt": null,
		"stimulus": "<div style=\"font-size:52px;\">+</div>",
		"key_press": null,
		"test_part": "fixation",
		"trial_type": "html-keyboard-response",
		"trial_index": 61,
		"time_elapsed": 352702,
		"internal_node_id": "0.0-1.0-0.20"
	},
	{
		"rt": null,
		"key_press": null,
		"trial_type": "video-keyboard-response",
		"trial_index": 62,
		"time_elapsed": 359489,
		"internal_node_id": "0.0-1.0-1.20"
	},
	{
		"video_id": 288,
		"valence": "0.65",
		"arousal": "0.39",
		"confidence": 1,
		"trial_type": "grid-response",
		"trial_index": 63,
		"time_elapsed": 366241,
		"internal_node_id": "0.0-1.0-2.20"
	},
	{
		"rt": null,
		"stimulus": "<div style=\"font-size:52px;\">+</div>",
		"key_press": null,
		"test_part": "fixation",
		"trial_type": "html-keyboard-response",
		"trial_index": 64,
		"time_elapsed": 366497,
		"internal_node_id": "0.0-1.0-0.21"
	},
	{
		"rt": null,
		"key_press": null,
		"trial_type": "video-keyboard-response",
		"trial_index": 65,
		"time_elapsed": 372539,
		"internal_node_id": "0.0-1.0-1.21"
	},
	{
		"video_id": 263,
		"valence": "0.24",
		"arousal": "0.76",
		"confidence": 1,
		"trial_type": "grid-response",
		"trial_index": 66,
		"time_elapsed": 377106,
		"internal_node_id": "0.0-1.0-2.21"
	},
	{
		"rt": null,
		"stimulus": "<div style=\"font-size:52px;\">+</div>",
		"key_press": null,
		"test_part": "fixation",
		"trial_type": "html-keyboard-response",
		"trial_index": 67,
		"time_elapsed": 377362,
		"internal_node_id": "0.0-1.0-0.22"
	},
	{
		"rt": null,
		"key_press": null,
		"trial_type": "video-keyboard-response",
		"trial_index": 68,
		"time_elapsed": 391115,
		"internal_node_id": "0.0-1.0-1.22"
	},
	{
		"video_id": 134,
		"valence": "-0.66",
		"arousal": "-0.95",
		"confidence": 1,
		"trial_type": "grid-response",
		"trial_index": 69,
		"time_elapsed": 395400,
		"internal_node_id": "0.0-1.0-2.22"
	},
	{
		"rt": null,
		"stimulus": "<div style=\"font-size:52px;\">+</div>",
		"key_press": null,
		"test_part": "fixation",
		"trial_type": "html-keyboard-response",
		"trial_index": 70,
		"time_elapsed": 395653,
		"internal_node_id": "0.0-1.0-0.23"
	},
	{
		"rt": null,
		"key_press": null,
		"trial_type": "video-keyboard-response",
		"trial_index": 71,
		"time_elapsed": 405303,
		"internal_node_id": "0.0-1.0-1.23"
	},
	{
		"video_id": 264,
		"valence": "-0.64",
		"arousal": "0.88",
		"confidence": 1,
		"trial_type": "grid-response",
		"trial_index": 72,
		"time_elapsed": 412716,
		"internal_node_id": "0.0-1.0-2.23"
	},
	{
		"rt": null,
		"stimulus": "<div style=\"font-size:52px;\">+</div>",
		"key_press": null,
		"test_part": "fixation",
		"trial_type": "html-keyboard-response",
		"trial_index": 73,
		"time_elapsed": 412967,
		"internal_node_id": "0.0-1.0-0.24"
	},
	{
		"rt": null,
		"key_press": null,
		"trial_type": "video-keyboard-response",
		"trial_index": 74,
		"time_elapsed": 422787,
		"internal_node_id": "0.0-1.0-1.24"
	},
	{
		"video_id": 279,
		"valence": "0.93",
		"arousal": "0.91",
		"confidence": 1,
		"trial_type": "grid-response",
		"trial_index": 75,
		"time_elapsed": 431031,
		"internal_node_id": "0.0-1.0-2.24"
	},
	{
		"rt": null,
		"stimulus": "<div style=\"font-size:52px;\">+</div>",
		"key_press": null,
		"test_part": "fixation",
		"trial_type": "html-keyboard-response",
		"trial_index": 76,
		"time_elapsed": 431284,
		"internal_node_id": "0.0-1.0-0.25"
	},
	{
		"rt": null,
		"key_press": null,
		"trial_type": "video-keyboard-response",
		"trial_index": 77,
		"time_elapsed": 446982,
		"internal_node_id": "0.0-1.0-1.25"
	},
	{
		"video_id": 20,
		"valence": "0.04",
		"arousal": "0.26",
		"confidence": 1,
		"trial_type": "grid-response",
		"trial_index": 78,
		"time_elapsed": 451825,
		"internal_node_id": "0.0-1.0-2.25"
	},
	{
		"rt": null,
		"stimulus": "<div style=\"font-size:52px;\">+</div>",
		"key_press": null,
		"test_part": "fixation",
		"trial_type": "html-keyboard-response",
		"trial_index": 79,
		"time_elapsed": 452081,
		"internal_node_id": "0.0-1.0-0.26"
	},
	{
		"rt": null,
		"key_press": null,
		"trial_type": "video-keyboard-response",
		"trial_index": 80,
		"time_elapsed": 468833,
		"internal_node_id": "0.0-1.0-1.26"
	},
	{
		"video_id": 166,
		"valence": "0.13",
		"arousal": "0.61",
		"confidence": 1,
		"trial_type": "grid-response",
		"trial_index": 81,
		"time_elapsed": 473584,
		"internal_node_id": "0.0-1.0-2.26"
	},
	{
		"rt": null,
		"stimulus": "<div style=\"font-size:52px;\">+</div>",
		"key_press": null,
		"test_part": "fixation",
		"trial_type": "html-keyboard-response",
		"trial_index": 82,
		"time_elapsed": 473836,
		"internal_node_id": "0.0-1.0-0.27"
	},
	{
		"rt": null,
		"key_press": null,
		"trial_type": "video-keyboard-response",
		"trial_index": 83,
		"time_elapsed": 482464,
		"internal_node_id": "0.0-1.0-1.27"
	},
	{
		"video_id": 344,
		"valence": "0.77",
		"arousal": "0.36",
		"confidence": 1,
		"trial_type": "grid-response",
		"trial_index": 84,
		"time_elapsed": 490600,
		"internal_node_id": "0.0-1.0-2.27"
	},
	{
		"rt": null,
		"stimulus": "<div style=\"font-size:52px;\">+</div>",
		"key_press": null,
		"test_part": "fixation",
		"trial_type": "html-keyboard-response",
		"trial_index": 85,
		"time_elapsed": 490856,
		"internal_node_id": "0.0-1.0-0.28"
	},
	{
		"rt": null,
		"key_press": null,
		"trial_type": "video-keyboard-response",
		"trial_index": 86,
		"time_elapsed": 498578,
		"internal_node_id": "0.0-1.0-1.28"
	},
	{
		"video_id": 179,
		"valence": "-0.10",
		"arousal": "0.21",
		"confidence": 1,
		"trial_type": "grid-response",
		"trial_index": 87,
		"time_elapsed": 509369,
		"internal_node_id": "0.0-1.0-2.28"
	},
	{
		"rt": null,
		"stimulus": "<div style=\"font-size:52px;\">+</div>",
		"key_press": null,
		"test_part": "fixation",
		"trial_type": "html-keyboard-response",
		"trial_index": 88,
		"time_elapsed": 509623,
		"internal_node_id": "0.0-1.0-0.29"
	},
	{
		"rt": null,
		"key_press": null,
		"trial_type": "video-keyboard-response",
		"trial_index": 89,
		"time_elapsed": 524155,
		"internal_node_id": "0.0-1.0-1.29"
	},
	{
		"video_id": 186,
		"valence": "0.33",
		"arousal": "0.68",
		"confidence": 1,
		"trial_type": "grid-response",
		"trial_index": 90,
		"time_elapsed": 531141,
		"internal_node_id": "0.0-1.0-2.29"
	},
	{
		"rt": 1687.8549999091774,
		"stimulus": "Thank you! Your responses have been collected.",
		"key_press": 66,
		"trial_type": "html-keyboard-response",
		"trial_index": 91,
		"time_elapsed": 532830,
		"internal_node_id": "0.0-2.0"
	}
]